'dmm02004.bt5' 'Mar  1 2007 12:46' 'I'        200.    1  'TIME'   10  'RAW'
  Filename         Date            Scan       Mon    Prf  Base   #pts  Type
dmm02 10um:1um 7:3 PMMA mix 1mm 5/8" Gd aperture  
   0    0    0    0   0   0   0   0.0000     0.00000 0.00000   0.00000    2
 Collimation      Mosaic    Wavelength   T-Start   Incr.   H-field #Det    
  1       0.00000    0.00000    0.00000
  2       5.00000    0.50000    9.50000
  3       0.00000    0.00000    0.00000
  4       0.00000    0.00000    0.00000
  5       0.00000    0.00000    0.00000
  6       0.00000    0.00000    0.00000
 Mot:    Start       Step      End
     A2       MIN      MONITOR      COUNTS      EXTRA  
      5.000    3.33     5836636        1338     4062737
 5836636,1338,755,4056018,845,2464,2655,0,0,0,0,0,0,0,0,0
      5.500    3.33     5827629        1204     4059515
 5827629,1204,650,4053394,815,2306,2350,0,0,0,0,0,0,0,0,0
      6.000    3.33     5835298        1024     4066008
 5835298,1024,552,4060882,682,1932,1960,0,0,0,0,0,0,0,0,0
      6.500    3.33     5830841         915     4062367
 5830841,915,505,4058003,548,1584,1727,0,0,0,0,0,0,0,0,0
      7.000    3.33     5825993         808     4060532
 5825993,808,366,4056753,517,1399,1497,0,0,0,0,0,0,0,0,0
      7.500    3.33     5829773         611     4063600
 5829773,611,323,4060579,421,1081,1196,0,0,0,0,0,0,0,0,0
      8.000    3.33     5827825         495     4062773
 5827825,495,220,4060411,320,821,1001,0,0,0,0,0,0,0,0,0
      8.500    3.33     5824450         321     4058948
 5824450,321,138,4057251,236,604,719,0,0,0,0,0,0,0,0,0
      9.000    3.33     5828803         254     4065023
 5828803,254,88,4063902,166,412,455,0,0,0,0,0,0,0,0,0
      9.500    3.33     5828231         176     4061678
 5828231,176,81,4060788,146,307,356,0,0,0,0,0,0,0,0,0
