'dmm10003.bt5' 'Feb 28 2007 15:52' 'I'        200.    1  'TIME'   15  'RAW'
  Filename         Date            Scan       Mon    Prf  Base   #pts  Type
dmm10 10um PMMA 1mm 5/8" Gd aperture              
   0    0    0    0   0   0   0   0.0000     0.00000 0.00000   0.00000    2
 Collimation      Mosaic    Wavelength   T-Start   Incr.   H-field #Det    
  1       0.00000    0.00000    0.00000
  2       2.00000    0.20000    4.80000
  3       0.00000    0.00000    0.00000
  4       0.00000    0.00000    0.00000
  5      30.00000    0.00000   30.00000
  6       0.00000    0.00000    0.00000
 Mot:    Start       Step      End
     A2       MIN      MONITOR      COUNTS      EXTRA  
      2.000    3.33     5793125       12323     3960536
 5793125,12323,5907,3898383,8781,21390,26075,0,0,0,0,0,0,0,0,0
      2.200    3.33     5793246        7838     3966361
 5793246,7838,4040,3927773,5157,13906,15485,0,0,0,0,0,0,0,0,0
      2.400    3.33     5798572        7156     3972509
 5798572,7156,3886,3937698,4288,13037,13600,0,0,0,0,0,0,0,0,0
      2.600    3.33     5794186        6958     3973474
 5794186,6958,3861,3938994,4274,12841,13504,0,0,0,0,0,0,0,0,0
      2.800    3.33     5801440        6510     3979748
 5801440,6510,3528,3947384,4151,11886,12799,0,0,0,0,0,0,0,0,0
      3.000    3.33     5793032        5441     3980646
 5793032,5441,2759,3953581,3597,9794,10915,0,0,0,0,0,0,0,0,0
      3.200    3.33     5791913        4085     3979928
 5791913,4085,1800,3959883,2827,6987,8431,0,0,0,0,0,0,0,0,0
      3.400    3.33     5791020        2734     3974927
 5791020,2734,1351,3961349,1953,4717,5557,0,0,0,0,0,0,0,0,0
      3.600    3.33     5793498        2207     3980828
 5793498,2207,1217,3970029,1424,3906,4252,0,0,0,0,0,0,0,0,0
      3.800    3.33     5794630        1906     3981238
 5794630,1906,1139,3971342,1238,3719,3800,0,0,0,0,0,0,0,0,0
      4.000    3.33     5794801        1935     3982612
 5794801,1935,1055,3972902,1216,3542,3897,0,0,0,0,0,0,0,0,0
      4.200    3.33     5792488        1852     3981213
 5792488,1852,884,3972323,1130,3261,3615,0,0,0,0,0,0,0,0,0
      4.400    3.33     5793774        1501     3980002
 5793774,1501,757,3972697,999,2625,2924,0,0,0,0,0,0,0,0,0
      4.600    3.33     5794571        1118     3983585
 5794571,1118,522,3978175,771,1907,2210,0,0,0,0,0,0,0,0,0
      4.800    3.33     5793310         852     3981123
 5793310,852,447,3976763,638,1563,1712,0,0,0,0,0,0,0,0,0
