'dmm05004.bt5' 'Mar  8 2007 18:59' 'I'        150.    1  'TIME'   10  'RAW'
  Filename         Date            Scan       Mon    Prf  Base   #pts  Type
dmm05 10um:1um pmma 40:60 pos 10, 5/8" Cd Ap      
   0    0    0    0   0   0   0   0.0000     0.00000 0.00000   0.00000    2
 Collimation      Mosaic    Wavelength   T-Start   Incr.   H-field #Det    
  1       0.00000    0.00000    0.00000
  2       5.00000    0.50000    9.50000
  3       0.00000    0.00000    0.00000
  4       0.00000    0.00000    0.00000
  5      10.00000    0.00000   10.00000
  6       0.00000    0.00000    0.00000
 Mot:    Start       Step      End
     A2       MIN      MONITOR      COUNTS      EXTRA  
      5.000    2.50     4390951         770     2264646
 4390951,770,405,2260493,479,1607,1662,0,0,0,0,0,0,0,0,0
      5.500    2.50     4401104         715     2271769
 4401104,715,367,2268127,477,1313,1485,0,0,0,0,0,0,0,0,0
      6.000    2.50     4388376         666     2268996
 4388376,666,340,2265837,384,1155,1280,0,0,0,0,0,0,0,0,0
      6.500    2.50     4394759         580     2269242
 4394759,580,284,2266450,350,1001,1157,0,0,0,0,0,0,0,0,0
      7.000    2.50     4399229         468     2271645
 4399229,468,224,2269302,301,837,981,0,0,0,0,0,0,0,0,0
      7.500    2.50     4395041         400     2268115
 4395041,400,185,2266231,208,704,787,0,0,0,0,0,0,0,0,0
      8.000    2.50     4395891         272     2270605
 4395891,272,107,2269184,177,520,617,0,0,0,0,0,0,0,0,0
      8.500    2.50     4394290         214     2269961
 4394290,214,85,2268992,122,342,420,0,0,0,0,0,0,0,0,0
      9.000    2.50     4397239         120     2270083
 4397239,120,58,2269446,84,197,298,0,0,0,0,0,0,0,0,0
      9.500    2.50     4397432          82     2272622
 4397432,82,39,2272193,72,151,167,0,0,0,0,0,0,0,0,0
