'dmm10007.bt5' 'Mar  1 2007 00:38' 'I'       1000.    1  'TIME'   10  'RAW'
  Filename         Date            Scan       Mon    Prf  Base   #pts  Type
dmm10 10um PMMA 1mm 5/8" Gd aperture              
   0    0    0    0   0   0   0   0.0000     0.00000 0.00000   0.00000    2
 Collimation      Mosaic    Wavelength   T-Start   Incr.   H-field #Det    
  1       0.00000    0.00000    0.00000
  2      50.00000    5.00000   95.00000
  3       0.00000    0.00000    0.00000
  4       0.00000    0.00000    0.00000
  5      30.00000    0.00000   30.00000
  6       0.00000    0.00000    0.00000
 Mot:    Start       Step      End
     A2       MIN      MONITOR      COUNTS      EXTRA  
     50.000   16.67    29185675           8    20045568
 29185675,8,5,20045528,8,13,14,0,0,0,0,0,0,0,0,0
     55.000   16.67    29189866          10    20052210
 29189866,10,10,20052169,8,11,12,0,0,0,0,0,0,0,0,0
     60.000   16.67    29176073           7    20042946
 29176073,7,7,20042920,4,11,4,0,0,0,0,0,0,0,0,0
     65.000   16.67    29194250           2    20042464
 29194250,2,6,20042431,8,12,7,0,0,0,0,0,0,0,0,0
     70.000   16.67    29186325           4    20037385
 29186325,4,7,20037360,3,8,7,0,0,0,0,0,0,0,0,0
     75.000   16.67    29161682           7    20027077
 29161682,7,3,20027042,6,15,11,0,0,0,0,0,0,0,0,0
     80.000   16.67    29187460           4    20042217
 29187460,4,6,20042194,2,10,5,0,0,0,0,0,0,0,0,0
     85.000   16.67    29178388           1    20029663
 29178388,1,8,20029630,7,7,11,0,0,0,0,0,0,0,0,0
     90.000   16.67    29181386           4    20032946
 29181386,4,4,20032923,4,5,10,0,0,0,0,0,0,0,0,0
     95.000   16.67    29170057          11    20031897
 29170057,11,1,20031876,9,9,2,0,0,0,0,0,0,0,0,0
