'dms03004.bt5' 'Mar  5 2007 18:36' 'I'        200.    1  'TIME'   10  'RAW'
  Filename         Date            Scan       Mon    Prf  Base   #pts  Type
dms03 5um:1um 70:30 SiO2 CM2.9 1mm 1/2" Cd apertur
   0    0    0    0   0   0   0   0.0000     0.00000 0.00000   0.00000    2
 Collimation      Mosaic    Wavelength   T-Start   Incr.   H-field #Det    
  1       0.00000    0.00000    0.00000
  2       5.00000    0.50000    9.50000
  3       0.00000    0.00000    0.00000
  4       0.00000    0.00000    0.00000
  5       0.00000    0.00000    0.00000
  6       0.00000    0.00000    0.00000
 Mot:    Start       Step      End
     A2       MIN      MONITOR      COUNTS      EXTRA  
      5.000    3.33     5810211         384     3152075
 5810211,384,190,3150283,198,678,726,0,0,0,0,0,0,0,0,0
      5.500    3.33     5809642         333     3149932
 5809642,333,129,3148431,199,552,621,0,0,0,0,0,0,0,0,0
      6.000    3.33     5802468         195     3149573
 5802468,195,105,3148568,119,347,434,0,0,0,0,0,0,0,0,0
      6.500    3.33     5802760         159     3151244
 5802760,159,72,3150490,87,258,337,0,0,0,0,0,0,0,0,0
      7.000    3.33     5801728         129     3151211
 5801728,129,63,3150590,72,238,248,0,0,0,0,0,0,0,0,0
      7.500    3.33     5791181         143     3144594
 5791181,143,71,3143920,86,270,247,0,0,0,0,0,0,0,0,0
      8.000    3.33     5797683         101     3148844
 5797683,101,66,3148236,66,218,258,0,0,0,0,0,0,0,0,0
      8.500    3.33     5799217          83     3146563
 5799217,83,41,3146091,66,154,211,0,0,0,0,0,0,0,0,0
      9.000    3.33     5801616          85     3149577
 5801616,85,36,3149218,42,127,154,0,0,0,0,0,0,0,0,0
      9.500    3.33     5807252          58     3153520
 5807252,58,42,3153155,43,137,143,0,0,0,0,0,0,0,0,0
