'dms02004.bt5' 'Mar  4 2007 00:15' 'I'        200.    1  'TIME'   10  'RAW'
  Filename         Date            Scan       Mon    Prf  Base   #pts  Type
dms02 5um SiO2 CM2.9 1mm 1/2" Cd aperture         
   0    0    0    0   0   0   0   0.0000     0.00000 0.00000   0.00000    2
 Collimation      Mosaic    Wavelength   T-Start   Incr.   H-field #Det    
  1       0.00000    0.00000    0.00000
  2       5.00000    0.50000    9.50000
  3       0.00000    0.00000    0.00000
  4       0.00000    0.00000    0.00000
  5      20.00000    0.00000   20.00000
  6       0.00000    0.00000    0.00000
 Mot:    Start       Step      End
     A2       MIN      MONITOR      COUNTS      EXTRA  
      5.000    3.33     5807356         414     3043671
 5807356,414,180,3041670,242,762,817,0,0,0,0,0,0,0,0,0
      5.500    3.33     5804824         328     3042573
 5804824,328,147,3040902,197,602,725,0,0,0,0,0,0,0,0,0
      6.000    3.33     5817357         198     3046763
 5817357,198,83,3045719,164,348,449,0,0,0,0,0,0,0,0,0
      6.500    3.33     5802039         116     3045431
 5802039,116,52,3044779,89,232,279,0,0,0,0,0,0,0,0,0
      7.000    3.33     5808486         107     3042847
 5808486,107,68,3042285,69,193,232,0,0,0,0,0,0,0,0,0
      7.500    3.33     5801967         110     3040079
 5801967,110,76,3039504,66,200,233,0,0,0,0,0,0,0,0,0
      8.000    3.33     5804427         109     3042716
 5804427,109,41,3042208,58,190,219,0,0,0,0,0,0,0,0,0
      8.500    3.33     5804824          75     3041989
 5804824,75,42,3041582,55,151,159,0,0,0,0,0,0,0,0,0
      9.000    3.33     5803906          47     3041077
 5803906,47,35,3040833,28,93,88,0,0,0,0,0,0,0,0,0
      9.500    3.33     5804309          55     3041728
 5804309,55,23,3041507,29,77,92,0,0,0,0,0,0,0,0,0
