'dms01005.bt5' 'Mar  3 2007 14:28' 'I'        400.    1  'TIME'   10  'RAW'
  Filename         Date            Scan       Mon    Prf  Base   #pts  Type
dms01 1um SiO2 CM2.9 1mm 1/2" Cd aperture         
   0    0    0    0   0   0   0   0.0000     0.00000 0.00000   0.00000    2
 Collimation      Mosaic    Wavelength   T-Start   Incr.   H-field #Det    
  1       0.00000    0.00000    0.00000
  2      10.00000    1.00000   19.00000
  3       0.00000    0.00000    0.00000
  4       0.00000    0.00000    0.00000
  5       0.00000    0.00000    0.00000
  6       0.00000    0.00000    0.00000
 Mot:    Start       Step      End
     A2       MIN      MONITOR      COUNTS      EXTRA  
     10.000    6.67    11657554         173     6355979
 11657554,173,88,6355123,79,311,378,0,0,0,0,0,0,0,0,0
     11.000    6.67    11651378         173     6352044
 11651378,173,94,6351151,108,332,359,0,0,0,0,0,0,0,0,0
     12.000    6.67    11649684         172     6351478
 11649684,172,100,6350626,105,346,301,0,0,0,0,0,0,0,0,0
     13.000    6.67    11644021         176     6347648
 11644021,176,77,6346844,89,311,327,0,0,0,0,0,0,0,0,0
     14.000    6.67    11664795         185     6351334
 11664795,185,81,6350517,92,288,356,0,0,0,0,0,0,0,0,0
     15.000    6.67    11653085         162     6347234
 11653085,162,92,6346478,102,263,299,0,0,0,0,0,0,0,0,0
     16.000    6.67    11655204         165     6349138
 11655204,165,84,6348305,109,307,333,0,0,0,0,0,0,0,0,0
     17.000    6.67    11662576         142     6355142
 11662576,142,52,6354453,90,239,308,0,0,0,0,0,0,0,0,0
     18.000    6.67    11655151         100     6346051
 11655151,100,46,6345567,70,168,200,0,0,0,0,0,0,0,0,0
     19.000    6.67    11656413          54     6350122
 11656413,54,29,6349823,47,87,136,0,0,0,0,0,0,0,0,0
