'dms01004.bt5' 'Mar  3 2007 13:51' 'I'        200.    1  'TIME'   10  'RAW'
  Filename         Date            Scan       Mon    Prf  Base   #pts  Type
dms01 1um SiO2 CM2.9 1mm 1/2" Cd aperture         
   0    0    0    0   0   0   0   0.0000     0.00000 0.00000   0.00000    2
 Collimation      Mosaic    Wavelength   T-Start   Incr.   H-field #Det    
  1       0.00000    0.00000    0.00000
  2       5.00000    0.50000    9.50000
  3       0.00000    0.00000    0.00000
  4       0.00000    0.00000    0.00000
  5       0.00000    0.00000    0.00000
  6       0.00000    0.00000    0.00000
 Mot:    Start       Step      End
     A2       MIN      MONITOR      COUNTS      EXTRA  
      5.000    3.33     5825854         223     3174279
 5825854,223,111,3173166,131,410,461,0,0,0,0,0,0,0,0,0
      5.500    3.33     5831696         181     3174387
 5831696,181,97,3173473,127,347,343,0,0,0,0,0,0,0,0,0
      6.000    3.33     5826333         158     3174315
 5826333,158,92,3173532,109,278,304,0,0,0,0,0,0,0,0,0
      6.500    3.33     5833229         164     3180108
 5833229,164,66,3179440,77,273,252,0,0,0,0,0,0,0,0,0
      7.000    3.33     5829159         122     3175729
 5829159,122,74,3175066,71,241,277,0,0,0,0,0,0,0,0,0
      7.500    3.33     5825473         105     3174294
 5825473,105,63,3173681,82,246,222,0,0,0,0,0,0,0,0,0
      8.000    3.33     5839034         128     3177056
 5839034,128,49,3176552,69,181,205,0,0,0,0,0,0,0,0,0
      8.500    3.33     5830821          97     3174701
 5830821,97,55,3174186,49,195,216,0,0,0,0,0,0,0,0,0
      9.000    3.33     5830612         116     3172624
 5830612,116,43,3172126,71,179,205,0,0,0,0,0,0,0,0,0
      9.500    3.33     5834385          85     3178371
 5834385,85,59,3177888,50,159,215,0,0,0,0,0,0,0,0,0
