'dmm10004.bt5' 'Feb 28 2007 16:46' 'I'        400.    1  'TIME'   10  'RAW'
  Filename         Date            Scan       Mon    Prf  Base   #pts  Type
dmm10 10um PMMA 1mm 5/8" Gd aperture              
   0    0    0    0   0   0   0   0.0000     0.00000 0.00000   0.00000    2
 Collimation      Mosaic    Wavelength   T-Start   Incr.   H-field #Det    
  1       0.00000    0.00000    0.00000
  2       5.00000    0.50000    9.50000
  3       0.00000    0.00000    0.00000
  4       0.00000    0.00000    0.00000
  5      30.00000    0.00000   30.00000
  6       0.00000    0.00000    0.00000
 Mot:    Start       Step      End
     A2       MIN      MONITOR      COUNTS      EXTRA  
      5.000    6.67    11594306        1586     7975355
 11594306,1586,944,7967459,985,2912,3055,0,0,0,0,0,0,0,0,0
      5.500    6.67    11585007        1456     7962684
 11585007,1456,720,7955791,933,2455,2785,0,0,0,0,0,0,0,0,0
      6.000    6.67    11596614         865     7970734
 11596614,865,436,7966505,614,1485,1694,0,0,0,0,0,0,0,0,0
      6.500    6.67    11595859         720     7972718
 11595859,720,368,7969087,448,1395,1420,0,0,0,0,0,0,0,0,0
      7.000    6.67    11584976         564     7965741
 11584976,564,315,7962844,383,988,1211,0,0,0,0,0,0,0,0,0
      7.500    6.67    11586090         431     7969398
 11586090,431,209,7967426,253,742,768,0,0,0,0,0,0,0,0,0
      8.000    6.67    11592290         350     7966601
 11592290,350,200,7964771,244,701,685,0,0,0,0,0,0,0,0,0
      8.500    6.67    11588233         285     7968050
 11588233,285,152,7966643,212,463,580,0,0,0,0,0,0,0,0,0
      9.000    6.67    11592441         248     7967534
 11592441,248,143,7966255,177,473,486,0,0,0,0,0,0,0,0,0
      9.500    6.67    11585794         193     7963653
 11585794,193,103,7962601,154,393,402,0,0,0,0,0,0,0,0,0
