'dm011005.bt5' 'Mar  6 2007 18:13' 'I'        400.    1  'TIME'   10  'RAW'
  Filename         Date            Scan       Mon    Prf  Base   #pts  Type
dm011 em11 settled bottom fraction um (hh), 0.508m
   0    0    0    0   0   0   0   0.0000     0.00000 0.00000   0.00000    2
 Collimation      Mosaic    Wavelength   T-Start   Incr.   H-field #Det    
  1       0.00000    0.00000    0.00000
  2      10.00000    1.00000   19.00000
  3       0.00000    0.00000    0.00000
  4       0.00000    0.00000    0.00000
  5      10.00000    0.00000   10.00000
  6       0.00000    0.00000    0.00000
 Mot:    Start       Step      End
     A2       MIN      MONITOR      COUNTS      EXTRA  
     10.000    6.67    11595595          60     5563044
 11595595,60,28,5562790,35,88,103,0,0,0,0,0,0,0,0,0
     11.000    6.67    11586583          40     5557835
 11586583,40,25,5557628,28,71,83,0,0,0,0,0,0,0,0,0
     12.000    6.67    11599027          26     5566387
 11599027,26,17,5566241,16,56,57,0,0,0,0,0,0,0,0,0
     13.000    6.67    11584772          28     5560157
 11584772,28,10,5560040,16,52,39,0,0,0,0,0,0,0,0,0
     14.000    6.67    11593501          25     5558309
 11593501,25,12,5558206,13,30,48,0,0,0,0,0,0,0,0,0
     15.000    6.67    11579477          12     5554762
 11579477,12,7,5554686,8,33,28,0,0,0,0,0,0,0,0,0
     16.000    6.67    11585194          14     5555109
 11585194,14,8,5555041,6,15,39,0,0,0,0,0,0,0,0,0
     17.000    6.67    11579385          16     5556708
 11579385,16,7,5556639,17,27,18,0,0,0,0,0,0,0,0,0
     18.000    6.67    11590024           9     5563328
 11590024,9,10,5563268,6,27,17,0,0,0,0,0,0,0,0,0
     19.000    6.67    11582936           7     5556612
 11582936,7,6,5556567,9,11,19,0,0,0,0,0,0,0,0,0
